**CONSTANTS
!---------!-----------------------------!---------!---------!
! Key     !   Comment                   !  Unit   !  value  !
!---------!-----------------------------!---------!---------!
OVALLDIA   Overall diameter               mm        524.
KROLRAD    kinematic roll radius          mm        245
NOMWIDTH   Nominal section width of tyre  mm        195
ASPRATIO   Nominal aspect ratio           %         50
RIMDIAME   Nominal rim diameter           inch      13

**MODELPARAMETERS
!---------!-----------------------------!---------!---------!---------!
! Key     !   Comment                   !  Unit   !  value  ! factor  !
!---------!-----------------------------!---------!---------!---------!
ITVS       Vertikale Reifenfeder                    300000.
ITVD       Vertikaler Reifendaempfer                  1000.
ITRLLO     Relaxationslaenge laengs                   0.05
ITRLLA     Relaxationsl. quer                         0.1
ITSSCLO    StillStandskoeffizient long                0.01
ITSSCLA    StillStandskoeffizient quer                0.01
ITRORETL   roll resistance Trq/Load                   0.01  

**MEASURCHANNELS
!---------!-----------------------------!---------!---------!---------!---------!
! Key     !   Comment                   !  Unit   !  factor ! offset1 ! offset2 !
!---------!-----------------------------!---------!---------!---------!---------!
!
! physical value [Unit] = factor * (measured value + offset1) + offset2
!
FZC       Vertical force                 N         1         0         0
SLIPANGL  Slip angle                     deg       1         0         0
FYC       Lateral force                  N         1         0         0
MZC       Aligning moment                Nm        1         0         0

**MEASURDATA
!Fz    alpha    Fy
500    -45    644.7
500    -44.37418176    648.48
500    -43.73469628    652.26
500    -43.08125554    656.04
500    -42.41388564    659.83
500    -41.73168542    663.61
500    -41.0346812    667.39
500    -40.32259893    671.17
500    -39.59517123    674.95
500    -38.85213885    678.73
500    -38.09325231    682.52
500    -37.3182736    686.3
500    -36.52734809    690.08
500    -35.71953421    693.86
500    -34.8950025    697.64
500    -34.0535808    701.42
500    -33.19511894    705.2
500    -32.31949125    708.99
500    -31.42659902    712.77
500    -30.51679838    716.55
500    -29.58921014    720.33
500    -28.64424965    724.11
500    -27.68195282    727.89
500    -26.70239597    731.67
500    -25.70569856    735.46
500    -24.6920257    739.24
500    -23.66207136    743.02
500    -22.61514551    746.8
500    -21.55203738    750.6
500    -20.47311763    754.94
500    -19.37881283    759.89
500    -18.26960666    765.32
500    -17.14604069    771.05    0
500    -16.00871474    776.94    0.057529
500    -14.85882201    782.82    0.25277
500    -13.69601285    788.54    0.26015
500    -12.52158824    793.94    -0.23385
500    -11.33637424    798.86    -0.87799
500    -10.14124904    803.15    -1.5288
500    -8.937140028    806.64    -2.1845
500    -7.725020278    809.19    -2.8424
500    -6.506470087    810.63    -3.4996
500    -5.281242061    808.62    -4.1414
500    -4.051379786    770.99    -4.569
500    -2.817824241    662.62    -4.4598
500    -1.581591932    448.55    -3.3799
500    -0.343908057    111.79    -0.9323
500    0.894085356    -275.79    2.2014
500    2.131278888    -558.69    4.01
500    3.366487533    -721.79    4.6
500    4.598514787    -794.44    4.4239
500    5.826295739    -810.9    3.8632
500    7.048844424    -810.14    3.2078
500    8.264976835    -808.18    2.5499
500    9.473657107    -805.2    1.8926
500    10.67388852    -801.33    1.2389
500    11.86416911    -796.74    0.59078
500    13.04469542    -791.59    -0.047503
500    14.21405878    -786.03    -0.30348
500    15.37145707    -780.22    -0.1676
500    16.51614351    -774.31    -0.0047432
500    17.64742816    -768.48    0
500    18.7646789    -762.86
500    19.86681504    -757.62
500    20.95434149    -752.92
500    22.02628642    -748.9
500    23.08224823    -745.12
500    24.12188067    -741.34
500    25.14489103    -737.56
500    26.1510383    -733.78
500    27.14013089    -729.99
500    28.11157856    -726.21
500    29.06618087    -722.43
500    30.00342606    -718.65
500    30.92329532    -714.87
500    31.82580636    -711.09
500    32.71101068    -707.31
500    33.57899085    -703.52
500    34.42946809    -699.74
500    35.2633667    -695.96
500    36.08044923    -692.18
500    36.88089685    -688.4
500    37.66490944    -684.62
500    38.43270336    -680.83
500    39.18450943    -677.05
500    39.92023395    -673.27
500    40.64081209    -669.49
500    41.34616267    -665.71
500    42.03655621    -661.93
500    42.71226926    -658.15
500    43.37358308    -654.36
500    44.02078242    -650.58
500    44.65415442    -646.8
1000    -44.74678607    1182.6
1000    -44.11543711    1189.1
1000    -43.47030347    1195.6
1000    -42.81109774    1202.1
1000    -42.13753476    1208.6
1000    -41.44933268    1215.1
1000    -40.74621416    1221.5
1000    -40.02824365    1228
1000    -39.2944922    1234.5
1000    -38.54503321    1241
1000    -37.77962164    1247.5
1000    -36.99802472    1253.9
1000    -36.20002382    1260.4
1000    -35.38541649    1266.9
1000    -34.55440727    1273.4
1000    -33.70606329    1279.9
1000    -32.84062488    1286.4
1000    -31.95797704    1292.8
1000    -31.0580328    1299.3
1000    -30.1407359    1305.8
1000    -29.20606345    1312.3
1000    -28.25402869    1318.8
1000    -27.28513622    1325.3
1000    -26.29858247    1331.7
1000    -25.29494973    1338.2
1000    -24.27442246    1344.7
1000    -23.23723423    1351.2
1000    -22.18366993    1357.7
1000    -21.1140678    1364.5
1000    -20.02932688    1372.6
1000    -18.92889232    1381.8
1000    -17.8137699    1391.8    0
1000    -16.68452492    1402.4    0.00011664
1000    -15.54178088    1413.2    0.54488
1000    -14.38621921    1423.9    1.4802
1000    -13.21857835    1434.2    1.7881
1000    -12.04020038    1443.9    0.42146
1000    -10.8508415    1452.7    -2.5474
1000    -9.651943322    1460.1    -5.5801
1000    -8.444452288    1466.1    -8.6346
1000    -7.229358942    1470.1    -11.699
1000    -6.007693646    1472.1    -14.759
1000    -4.780692491    1453.9    -17.583
1000    -3.549223977    1336.6    -18.929
1000    -2.314406615    1056.2    -17.141
1000    -1.077491982    567.97    -10.393
1000    0.160490788    -89.725    1.7792
1000    1.398312295    -714.51    12.691
1000    2.634778379    -1147.9    18.014
1000    3.868850908    -1380.1    18.805
1000    5.099339349    -1465.4    16.937
1000    6.3248472    -1471.8    13.967
1000    7.544910394    -1469.3    10.904
1000    8.758131065    -1464.7    7.8412
1000    9.963488733    -1458.3    4.7913
1000    11.16000389    -1450.5    1.7659
1000    12.34674216    -1441.5    -0.9959
1000    13.52281785    -1431.6    -1.8264
1000    14.68686089    -1421.1    -1.2564
1000    15.83916962    -1410.4    -0.32582
1000    16.97847862    -1399.6    0
1000    18.1041214    -1389.2
1000    19.21548952    -1379.3
1000    20.31203282    -1370.4
1000    21.39325905    -1362.6
1000    22.45873328    -1356
1000    23.50759484    -1349.5
1000    24.5404908    -1343
1000    25.55666044    -1336.5
1000    26.55588312    -1330.1
1000    27.53798674    -1323.6
1000    28.50284526    -1317.1
1000    29.45037611    -1310.6
1000    30.38011118    -1304.1
1000    31.29290774    -1297.6
1000    32.18836312    -1291.2
1000    33.0665418    -1284.7
1000    33.92753826    -1278.2
1000    34.77147436    -1271.7
1000    35.59849677    -1265.2
1000    36.40877457    -1258.8
1000    37.20213332    -1252.3
1000    37.97951439    -1245.8
1000    38.74076914    -1239.3
1000    39.48613372    -1232.8
1000    40.21585602    -1226.3
1000    40.93019395    -1219.9
1000    41.62941378    -1213.4
1000    42.31347536    -1206.9
1000    42.9832906    -1200.4
1000    43.63882222    -1193.9
1000    44.28035605    -1187.4
1000    44.90817992    -1181
1500    -44.49104256    1612.5
1500    -43.85410864    1620.6
1500    -43.2035771    1628.7
1500    -42.53855909    1636.8
1500    -41.85906858    1644.9
1500    -41.16482541    1653
1500    -40.45555447    1661.1
1500    -39.73098702    1669.2
1500    -38.99086218    1677.3
1500    -38.23528205    1685.4
1500    -37.46330684    1693.5
1500    -36.67505543    1701.6
1500    -35.87031552    1709.7
1500    -35.04889188    1717.8
1500    -34.21060852    1725.9
1500    -33.35531103    1734.1
1500    -32.482869    1742.2
1500    -31.59359426    1750.3
1500    -30.68658865    1758.4
1500    -29.76221688    1766.5
1500    -28.82047044    1774.6
1500    -27.86137804    1782.7
1500    -26.88500833    1790.8
1500    -25.89147256    1798.9
1500    -24.88139877    1807
1500    -23.85405579    1815.1
1500    -22.81016155    1823.2
1500    -21.75002244    1831.3
1500    -20.67399892    1840.6
1500    -19.58250712    1851.8
1500    -18.47602007    1864.6
1500    -17.35559057    1878.4    0
1500    -16.22076997    1892.8    0.23582
1500    -15.07272085    1907.6    2.1322
1500    -13.91214799    1922.1    4.5389
1500    -12.73981269    1936.1    5.7108
1500    -11.55653108    1949    3.8529
1500    -10.36317192    1960.5    -2.5295
1500    -9.160653732    1970.2    -10.249
1500    -7.950503417    1977.6    -18.024
1500    -6.732607392    1982.3    -25.822
1500    -5.508512558    1983.9    -33.603
1500    -4.279467406    1919.4    -40.02
1500    -3.046464506    1674.2    -41.457
1500    -1.810688449    1169.9    -33.547
1500    -0.573167858    405.32    -13.208
1500    0.664887674    -468.46    15.13
1500    1.902265465    -1217    34.544
1500    3.13792811    -1700.5    41.616
1500    4.370676218    -1929.3    39.668
1500    5.599327096    -1983.9    33.029
1500    6.823003744    -1982    25.244
1500    8.040403017    -1977.1    17.447
1500    9.250539076    -1969.5    9.6752
1500    10.45185351    -1959.7    1.9606
1500    11.64449743    -1948.1    -4.1346
1500    12.82699772    -1935.1    -5.7056
1500    13.99848945    -1921    -4.3812
1500    15.15816046    -1906.5    -1.9532
1500    16.3052536    -1891.8    -0.16248
1500    17.43906832    -1877.3    0
1500    18.55844683    -1863.6
1500    19.66384112    -1850.9
1500    20.75420316    -1839.8
1500    21.82906418    -1830.7
1500    22.8880122    -1822.6
1500    23.93069084    -1814.5
1500    24.95679763    -1806.4
1500    25.96561902    -1798.3
1500    26.9578886    -1790.2
1500    27.93298238    -1782.1
1500    28.89079234    -1774
1500    29.83125288    -1765.9
1500    30.75433813    -1757.8
1500    31.66005925    -1749.7
1500    32.5484617    -1741.6
1500    33.41922333    -1733.5
1500    34.27325631    -1725.3
1500    35.11028582    -1717.2
1500    35.93046792    -1709.1
1500    36.7339801    -1701
1500    37.52101896    -1692.9
1500    38.29179794    -1684.8
1500    39.04619976    -1676.7
1500    39.78516398    -1668.6
1500    40.50858984    -1660.5
1500    41.21673883    -1652.4
1500    41.90988021    -1644.3
1500    42.58828952    -1636.2
1500    43.25224725    -1628.1
1500    43.90174012    -1620
1500    44.53765618    -1611.9
2000    -44.86215958    1924.3
2000    -44.23333052    1933
2000    -43.59077014    1941.6
2000    -42.93419074    1950.3
2000    -42.26330665    1958.9
2000    -41.57783532    1967.5
2000    -40.87782606    1976.2
2000    -40.16235811    1984.8
2000    -39.43148639    1993.5
2000    -38.68495367    2002.1
2000    -37.92251286    2010.8
2000    -37.14392878    2019.4
2000    -36.34898002    2028
2000    -35.53784039    2036.7
2000    -34.70957122    2045.3
2000    -33.86437672    2054
2000    -33.00211195    2062.6
2000    -32.12265699    2071.3
2000    -31.2259195    2079.9
2000    -30.31183732    2088.5
2000    -29.38081625    2097.2
2000    -28.43200054    2105.8
2000    -27.46586185    2114.5
2000    -26.48248586    2123.1
2000    -25.48200195    2131.8
2000    -24.46458573    2140.4
2000    -23.4304615    2149.1
2000    -22.37990451    2157.7
2000    -21.31374024    2166.6
2000    -20.23136433    2178
2000    -19.13370583    2191.6
2000    -18.02126123    2207.1
2000    -16.89458504    2223.8    0
2000    -15.75428999    2241.3    1.4276
2000    -14.60104685    2259    5.6629
2000    -13.43612561    2276.4    10.398
2000    -12.25923123    2293    13.172
2000    -11.07173811    2308.2    11.454
2000    -9.874535645    2321.5    2.6604
2000    -8.668561697    2332.5    -12.276
2000    -7.454798951    2340.5    -27.496
2000    -6.234270744    2345.1    -42.756
2000    -5.008320667    2338    -57.787
2000    -3.777528212    2197.2    -68.556
2000    -2.54329221    1797.8    -67.751
2000    -1.306632874    1063.1    -46.959
2000    -0.06878355    59.157    -2.9966
2000    1.169129977    -961.64    43.168
2000    2.405981571    -1733.2    66.566
2000    3.640536795    -2167.6    69.194
2000    4.871773696    -2331.7    59.312
2000    6.098347518    -2345.4    44.451
2000    7.319562349    -2341.2    29.191
2000    8.53412768    -2333.5    13.963
2000    9.741015939    -2322.9    -1.1335
2000    10.93923971    -2309.8    -10.874
2000    12.12785596    -2294.7    -13.25
2000    13.30542715    -2278.3    -10.849
2000    14.47220022    -2260.9    -6.2087
2000    15.62683749    -2243.2    -1.7988
2000    16.76860472    -2225.7    0
2000    17.89682473    -2208.9
2000    19.01087832    -2193.3
2000    20.11020452    -2179.4
2000    21.19430043    -2167.8
2000    22.26222985    -2158.7
2000    23.3145926    -2150
2000    24.35055638    -2141.4
2000    25.36984017    -2132.7
2000    26.37221412    -2124.1
2000    27.35749731    -2115.4
2000    28.32555538    -2106.8
2000    29.27586196    -2098.2
2000    30.20924792    -2089.5
2000    31.12525882    -2080.9
2000    32.02392012    -2072.2
2000    32.90529044    -2063.6
2000    33.76945891    -2054.9
2000    34.61654251    -2046.3
2000    35.44630327    -2037.6
2000    36.25967452    -2029
2000    37.05645372    -2020.4
2000    37.8368446    -2011.7
2000    38.6010669    -2003.1
2000    39.34935437    -1994.4
2000    40.08195287    -1985.8
2000    40.79911858    -1977.1
2000    41.50079497    -1968.5
2000    42.18790361    -1959.9
2000    42.86039387    -1951.2
2000    43.51854789    -1942.6
2000    44.16265105    -1933.9
2000    44.79299086    -1925.3
2500    -44.60743693    2134.6
2500    -43.97334144    2142.7
2500    -43.32510688    2150.8
2500    -42.66273667    2158.9
2500    -41.98594627    2167
2500    -41.29445473    2175.1
2500    -40.58798589    2183.2
2500    -39.86626975    2191.3
2500    -39.12938862    2199.4
2500    -38.37640702    2207.5
2500    -37.60742001    2215.6
2500    -36.8221978    2223.7
2500    -36.02052517    2231.8
2500    -35.20220355    2239.9
2500    -34.36705324    2248
2500    -33.51491564    2256.2
2500    -32.64606194    2264.3
2500    -31.75957871    2272.4
2500    -30.85578384    2280.5
2500    -29.93462824    2288.6
2500    -28.99609682    2296.7
2500    -28.0402112    2304.8
2500    -27.06703242    2312.9
2500    -26.07712591    2321
2500    -25.06972294    2329.1
2500    -24.045473    2337.2
2500    -23.00462086    2345.3
2500    -21.94746312    2353.4
2500    -20.87435009    2362.8
2500    -19.78568749    2375.5
2500    -18.68245192    2390.9
2500    -17.56414173    2408.2    0
2500    -16.43184243    2427    0.18751
2500    -15.28619045    2446.6    4.4363
2500    -14.12787998    2466.4    12.078
2500    -12.95766196    2485.7    20.083
2500    -11.77634252    2504    25.317
2500    -10.58478087    2520.7    24.553
2500    -9.384444299    2535    14.501
2500    -8.175177598    2546.5    -7.5012
2500    -6.958534169    2554.4    -33.16
2500    -5.735552586    2558.2    -58.884
2500    -4.507419219    2521.7    -83.35
2500    -3.275064805    2278.3    -98.17
2500    -2.03966984    1702.1    -90.425
2500    -0.80243222    749.67    -47.35
2500    0.435611418    -413.36    27.337
2500    1.673248469    -1456.5    81.708
2500    2.909268675    -2147    98.896
2500    4.142642076    -2477.3    89.249
2500    5.372182023    -2558.5    66.498
2500    6.596949841    -2556    40.782
2500    7.815017878    -2549.2    15.09
2500    9.026578812    -2538.7    -9.2522
2500    10.23005548    -2525.2    -22.692
2500    11.42447806    -2509.1    -25.863
2500    12.6089227    -2491.3    -22.067
2500    13.78251496    -2472.2    -14.552
2500    14.94443275    -2452.5    -6.4813
2500    16.09390859    -2432.8    -0.91742
2500    17.22970867    -2413.7    0
2500    18.35223128    -2395.8
2500    19.46035201    -2379.8
2500    20.55353358    -2366.3
2500    21.63129657    -2355.8
2500    22.6932186    -2347.7
2500    23.73893309    -2339.6
2500    24.76765533    -2331.5
2500    25.78007803    -2323.4
2500    26.77551145    -2315.3
2500    27.75379392    -2307.2
2500    28.71480928    -2299.1
2500    29.65848428    -2291
2500    30.58478591    -2282.9
2500    31.49371869    -2274.8
2500    32.38491331    -2266.7
2500    33.25926632    -2258.6
2500    34.1164619    -2250.4
2500    34.95662765    -2242.3
2500    35.77991541    -2234.2
2500    36.58649891    -2226.1
2500    37.37657134    -2218
2500    38.14998889    -2209.9
2500    38.90769329    -2201.8
2500    39.64956162    -2193.7
2500    40.37584415    -2185.6
2500    41.08680078    -2177.5
2500    41.78269945    -2169.4
2500    42.46381464    -2161.3
2500    43.13012084    -2153.2
2500    43.7825185    -2145.1
2500    44.42098217    -2137
3000    -44.97707252    2227.4
3000    -44.35075346    2233.9
3000    -43.71075649    2240.4
3000    -43.05679362    2246.9
3000    -42.38889129    2253.4
3000    -41.70614798    2259.9
3000    -41.00859042    2266.3
3000    -40.29594479    2272.8
3000    -39.56794397    2279.3
3000    -38.82432905    2285.8
3000    -38.06485094    2292.3
3000    -37.28927211    2298.7
3000    -36.49773871    2305.2
3000    -35.68930924    2311.7
3000    -34.86415521    2318.2
3000    -34.02210521    2324.7
3000    -33.16300996    2331.2
3000    -32.28674472    2337.6
3000    -31.39321184    2344.1
3000    -30.4827689    2350.6
3000    -29.55453735    2357.1
3000    -28.60893419    2363.6
3000    -27.64599677    2370.1
3000    -26.66580298    2376.5
3000    -25.66847391    2383
3000    -24.65417641    2389.5
3000    -23.62312562    2396
3000    -22.57607568    2402.5
3000    -21.51237526    2409.1
3000    -20.43287801    2418.8
3000    -19.33801258    2432.2
3000    -18.2282648    2448.4
3000    -17.10417839    2466.9    0
3000    -15.96635532    2486.9    1.7962
3000    -14.81599114    2507.8    10.197
3000    -13.65273789    2528.8    22.337
3000    -12.4778988    2549.2    34.595
3000    -11.29230192    2568.4    43.218
3000    -10.09682732    2585.7    44.34
3000    -8.892404136    2600.3    34.018
3000    -7.680007064    2611.6    8.2958
3000    -6.461217957    2618.8    -30.428
3000    -5.235790451    2621.4    -69.738
3000    -4.005769397    2528.2    -105.14
3000    -2.772039445    2163.4    -122.39
3000    -1.535789225    1410.8    -100.96
3000    -0.298055686    296.15    -25.629
3000    0.939967517    -907.99    71.525
3000    2.177050747    -1853.3    118.22
3000    3.412163945    -2394.9    116.88
3000    4.644053864    -2601.9    87.992
3000    5.871656349    -2620.7    49.357
3000    7.093986383    -2615.6    10.067
3000    8.309861153    -2606.2    -23.798
3000    9.51824616    -2593.1    -41.043
3000    10.71814622    -2577    -44.936
3000    11.90806123    -2558.6    -39.437
3000    13.08818921    -2538.7    -28.453
3000    14.25712359    -2517.9    -15.795
3000    15.41406425    -2496.9    -5.1506
3000    16.5582665    -2476.4    -0.071467
3000    17.68904253    -2457.1    0
3000    18.80576236    -2439.7
3000    19.90734772    -2424.8
3000    20.99430517    -2413.3
3000    22.06566521    -2405.6
3000    23.12102835    -2399.1
3000    24.16005033    -2392.6
3000    25.18244041    -2386.1
3000    26.18795943    -2379.7
3000    27.1764176    -2373.2
3000    28.14722667    -2366.7
3000    29.10118721    -2360.2
3000    30.03778925    -2353.7
3000    30.95701538    -2347.2
3000    31.85888461    -2340.8
3000    32.74344963    -2334.3
3000    33.61079413    -2327.8
3000    34.46064061    -2321.3
3000    35.2939137    -2314.8
3000    36.11037705    -2308.4
3000    36.91021258    -2301.9
3000    37.69362081    -2295.4
3000    38.46081866    -2288.9
3000    39.21203746    -2282.4
3000    39.94752095    -2275.9
3000    40.66719388    -2269.5
3000    41.37198588    -2263
3000    42.06183099    -2256.5
3000    42.73700594    -2250
3000    43.39779216    -2243.5
3000    44.04447448    -2237
3000    44.67734013    -2230.6

**MEASURCHANNELS
!---------!-----------------------------!---------!---------!---------!---------!
! Key     !   Comment                   !  Unit   !  factor ! offset1 ! offset2 !
!---------!-----------------------------!---------!---------!---------!---------!
!
! physical value [Unit] = factor * (measured value + offset1) + offset2
!
FZC       Wheel Load                    N         1 
LONGSLIP  Longslip                      %         1
FXC       Longforce                     N         1
 
**MEASURDATA
!Fz        Schlupf        Fx
500        100        629.19
500        99.04        629.73
500        98.079        630.27
500        97.119        630.81
500        96.158        631.35
500        95.198        631.89
500        94.238        632.43
500        93.277        632.97
500        92.317        633.51
500        91.357        634.05
500        90.396        634.59
500        89.436        635.13
500        88.475        635.67
500        87.515        636.21
500        86.555        636.75
500        85.594        637.29
500        84.634        637.83
500        83.673        638.37
500        82.713        638.91
500        81.753        639.45
500        80.792        639.99
500        79.832        640.53
500        78.872        641.07
500        77.911        641.61
500        76.951        642.15
500        75.99        642.69
500        75.03        643.23
500        74.07        643.77
500        73.109        644.31
500        72.149        644.85
500        71.188        645.39
500        70.228        645.93
500        69.268        646.47
500        68.307        647.01
500        67.347        647.55
500        66.387        648.1
500        65.426        648.64
500        64.466        649.18
500        63.505        649.72
500        62.545        650.26
500        61.585        650.8
500        60.624        651.34
500        59.664        651.88
500        58.703        652.42
500        57.743        652.96
500        56.783        653.5
500        55.822        654.04
500        54.862        654.58
500        53.902        655.35
500        52.941        656.48
500        51.981        657.94
500        51.02        659.71
500        50.06        661.79
500        49.1        664.17
500        48.139        666.81
500        47.179        669.71
500        46.218        672.86
500        45.258        676.24
500        44.298        679.83
500        43.337        683.62
500        42.377        687.59
500        41.417        691.73
500        40.456        696.02
500        39.496        700.45
500        38.535        705
500        37.575        709.66
500        36.615        714.41
500        35.654        719.24
500        34.694        724.13
500        33.733        729.06
500        32.773        734.03
500        31.813        739.01
500        30.852        743.99
500        29.892        748.96
500        28.932        753.9
500        27.971        758.8
500        27.011        763.63
500        26.05        768.39
500        25.09        773.07
500        24.13        777.63
500        23.169        782.07
500        22.209        786.38
500        21.249        790.54
500        20.288        794.53
500        19.328        798.34
500        18.367        801.96
500        17.407        805.36
500        16.447        808.54
500        15.486        811.47
500        14.526        814.15
500        13.565        816.55
500        12.605        818.67
500        11.645        820.48
500        10.684        821.98
500        9.7239        823.14
500        8.7635        823.96
500        7.8031        824.41
500        6.8427        824.06
500        5.8824        815.35
500        4.922        791.48
500        3.9616        745.19
500        3.0012        665.88
500        2.0408        538.27
500        1.0804        340.92
500        0.12005        45.471
500        -0.84035        -270.66
500        -1.8007        -485.58
500        -2.7611        -625.48
500        -3.7215        -712.56
500        -4.6819        -763.35
500        -5.6423        -789.54
500        -6.6026        -799.2
500        -7.563        -799.69
500        -8.5234        -799.32
500        -9.4838        -798.65
500        -10.444        -797.68
500        -11.405        -796.43
500        -12.365        -794.91
500        -13.325        -793.14
500        -14.286        -791.13
500        -15.246        -788.89
500        -16.206        -786.43
500        -17.167        -783.76
500        -18.127        -780.91
500        -19.088        -777.87
500        -20.048        -774.67
500        -21.008        -771.31
500        -21.969        -767.82
500        -22.929        -764.19
500        -23.89        -760.45
500        -24.85        -756.6
500        -25.81        -752.66
500        -26.771        -748.65
500        -27.731        -744.57
500        -28.691        -740.43
500        -29.652        -736.26
500        -30.612        -732.05
500        -31.573        -727.83
500        -32.533        -723.61
500        -33.493        -719.4
500        -34.454        -715.21
500        -35.414        -711.06
500        -36.375        -706.95
500        -37.335        -702.9
500        -38.295        -698.93
500        -39.256        -695.04
500        -40.216        -691.25
500        -41.176        -687.57
500        -42.137        -684.02
500        -43.097        -680.6
500        -44.058        -677.32
500        -45.018        -674.21
500        -45.978        -671.28
500        -46.939        -668.53
500        -47.899        -665.97
500        -48.86        -663.63
500        -49.82        -661.52
500        -50.78        -659.64
500        -51.741        -658.01
500        -52.701        -656.64
500        -53.661        -655.54
500        -54.622        -654.74
500        -55.582        -654.17
500        -56.543        -653.63
500        -57.503        -653.09
500        -58.463        -652.55
500        -59.424        -652.01
500        -60.384        -651.47
500        -61.345        -650.93
500        -62.305        -650.39
500        -63.265        -649.85
500        -64.226        -649.31
500        -65.186        -648.77
500        -66.146        -648.23
500        -67.107        -647.69
500        -68.067        -647.15
500        -69.028        -646.61
500        -69.988        -646.07
500        -70.948        -645.53
500        -71.909        -644.99
500        -72.869        -644.45
500        -73.83        -643.91
500        -74.79        -643.37
500        -75.75        -642.83
500        -76.711        -642.29
500        -77.671        -641.75
500        -78.631        -641.21
500        -79.592        -640.67
500        -80.552        -640.13
500        -81.513        -639.59
500        -82.473        -639.05
500        -83.433        -638.51
500        -84.394        -637.97
500        -85.354        -637.43
500        -86.315        -636.89
500        -87.275        -636.35
500        -88.235        -635.81
500        -89.196        -635.27
500        -90.156        -634.72
500        -91.116        -634.18
500        -92.077        -633.64
500        -93.037        -633.1
500        -93.998        -632.56
500        -94.958        -632.02
500        -95.918        -631.48
500        -96.879        -630.94
500        -97.839        -630.4
500        -98.8        -629.86
500        -99.76        -629.32
1000        99.36        1116.6
1000        98.399        1117.6
1000        97.439        1118.6
1000        96.479        1119.5
1000        95.518        1120.5
1000        94.558        1121.4
1000        93.597        1122.4
1000        92.637        1123.4
1000        91.677        1124.3
1000        90.716        1125.3
1000        89.756        1126.2
1000        88.796        1127.2
1000        87.835        1128.2
1000        86.875        1129.1
1000        85.914        1130.1
1000        84.954        1131
1000        83.994        1132
1000        83.033        1133
1000        82.073        1133.9
1000        81.112        1134.9
1000        80.152        1135.8
1000        79.192        1136.8
1000        78.231        1137.8
1000        77.271        1138.7
1000        76.311        1139.7
1000        75.35        1140.7
1000        74.39        1141.6
1000        73.429        1142.6
1000        72.469        1143.5
1000        71.509        1144.5
1000        70.548        1145.5
1000        69.588        1146.4
1000        68.627        1147.4
1000        67.667        1148.3
1000        66.707        1149.3
1000        65.746        1150.3
1000        64.786        1151.2
1000        63.826        1152.2
1000        62.865        1153.1
1000        61.905        1154.1
1000        60.944        1155.1
1000        59.984        1156
1000        59.024        1157.3
1000        58.063        1159.1
1000        57.103        1161.6
1000        56.142        1164.5
1000        55.182        1168
1000        54.222        1172
1000        53.261        1176.5
1000        52.301        1181.4
1000        51.341        1186.7
1000        50.38        1192.5
1000        49.42        1198.6
1000        48.459        1205.1
1000        47.499        1211.9
1000        46.539        1219
1000        45.578        1226.4
1000        44.618        1234.1
1000        43.657        1242
1000        42.697        1250.2
1000        41.737        1258.5
1000        40.776        1267
1000        39.816        1275.7
1000        38.856        1284.5
1000        37.895        1293.4
1000        36.935        1302.4
1000        35.974        1311.4
1000        35.014        1320.5
1000        34.054        1329.6
1000        33.093        1338.7
1000        32.133        1347.7
1000        31.172        1356.7
1000        30.212        1365.6
1000        29.252        1374.4
1000        28.291        1383.1
1000        27.331        1391.7
1000        26.371        1400
1000        25.41        1408.2
1000        24.45        1416.2
1000        23.489        1423.9
1000        22.529        1431.3
1000        21.569        1438.5
1000        20.608        1445.3
1000        19.648        1451.9
1000        18.687        1458
1000        17.727        1463.8
1000        16.767        1469.2
1000        15.806        1474.2
1000        14.846        1478.7
1000        13.886        1482.7
1000        12.925        1486.3
1000        11.965        1489.3
1000        11.004        1491.8
1000        10.044        1493.8
1000        9.0836        1495.1
1000        8.1232        1495.9
1000        7.1629        1495.2
1000        6.2025        1481.1
1000        5.2421        1443.3
1000        4.2817        1370.9
1000        3.3213        1247.8
1000        2.3609        1050.6
1000        1.4006        745.03
1000        0.44018        282.23
1000        -0.52021        -319.61
1000        -1.4806        -757.99
1000        -2.441        -1047.3
1000        -3.4014        -1232.6
1000        -4.3618        -1346.2
1000        -5.3221        -1410.9
1000        -6.2825        -1442.3
1000        -7.2429        -1451.1
1000        -8.2033        -1450.9
1000        -9.1637        -1450.1
1000        -10.124        -1448.7
1000        -11.084        -1446.9
1000        -12.045        -1444.7
1000        -13.005        -1441.9
1000        -13.966        -1438.8
1000        -14.926        -1435.2
1000        -15.886        -1431.2
1000        -16.847        -1426.8
1000        -17.807        -1422.1
1000        -18.768        -1417
1000        -19.728        -1411.7
1000        -20.688        -1406
1000        -21.649        -1400
1000        -22.609        -1393.8
1000        -23.569        -1387.4
1000        -24.53        -1380.7
1000        -25.49        -1373.8
1000        -26.451        -1366.8
1000        -27.411        -1359.5
1000        -28.371        -1352.2
1000        -29.332        -1344.7
1000        -30.292        -1337.1
1000        -31.252        -1329.4
1000        -32.213        -1321.6
1000        -33.173        -1313.9
1000        -34.134        -1306
1000        -35.094        -1298.2
1000        -36.054        -1290.4
1000        -37.015        -1282.6
1000        -37.975        -1274.9
1000        -38.936        -1267.2
1000        -39.896        -1259.6
1000        -40.856        -1252.2
1000        -41.817        -1244.8
1000        -42.777        -1237.7
1000        -43.737        -1230.6
1000        -44.698        -1223.8
1000        -45.658        -1217.2
1000        -46.619        -1210.8
1000        -47.579        -1204.7
1000        -48.539        -1198.8
1000        -49.5        -1193.2
1000        -50.46        -1187.9
1000        -51.421        -1182.9
1000        -52.381        -1178.3
1000        -53.341        -1174
1000        -54.302        -1170.1
1000        -55.262        -1166.6
1000        -56.222        -1163.6
1000        -57.183        -1161
1000        -58.143        -1158.8
1000        -59.104        -1157.1
1000        -60.064        -1155.9
1000        -61.024        -1155
1000        -61.985        -1154
1000        -62.945        -1153.1
1000        -63.906        -1152.1
1000        -64.866        -1151.1
1000        -65.826        -1150.2
1000        -66.787        -1149.2
1000        -67.747        -1148.3
1000        -68.707        -1147.3
1000        -69.668        -1146.3
1000        -70.628        -1145.4
1000        -71.589        -1144.4
1000        -72.549        -1143.5
1000        -73.509        -1142.5
1000        -74.47        -1141.5
1000        -75.43        -1140.6
1000        -76.391        -1139.6
1000        -77.351        -1138.6
1000        -78.311        -1137.7
1000        -79.272        -1136.7
1000        -80.232        -1135.8
1000        -81.192        -1134.8
1000        -82.153        -1133.8
1000        -83.113        -1132.9
1000        -84.074        -1131.9
1000        -85.034        -1131
1000        -85.994        -1130
1000        -86.955        -1129
1000        -87.915        -1128.1
1000        -88.876        -1127.1
1000        -89.836        -1126.2
1000        -90.796        -1125.2
1000        -91.757        -1124.2
1000        -92.717        -1123.3
1000        -93.677        -1122.3
1000        -94.638        -1121.4
1000        -95.598        -1120.4
1000        -96.559        -1119.4
1000        -97.519        -1118.5
1000        -98.479        -1117.5
1000        -99.44        -1116.6
1500        99.68        1459
1500        98.719        1460.2
1500        97.759        1461.5
1500        96.799        1462.8
1500        95.838        1464
1500        94.878        1465.3
1500        93.918        1466.5
1500        92.957        1467.8
1500        91.997        1469.1
1500        91.036        1470.3
1500        90.076        1471.6
1500        89.116        1472.8
1500        88.155        1474.1
1500        87.195        1475.4
1500        86.234        1476.6
1500        85.274        1477.9
1500        84.314        1479.2
1500        83.353        1480.4
1500        82.393        1481.7
1500        81.433        1482.9
1500        80.472        1484.2
1500        79.512        1485.5
1500        78.551        1486.7
1500        77.591        1488
1500        76.631        1489.2
1500        75.67        1490.5
1500        74.71        1491.8
1500        73.75        1493
1500        72.789        1494.3
1500        71.829        1495.5
1500        70.868        1496.8
1500        69.908        1498.1
1500        68.948        1499.3
1500        67.987        1500.6
1500        67.027        1501.8
1500        66.066        1503.1
1500        65.106        1504.4
1500        64.146        1505.9
1500        63.185        1508.2
1500        62.225        1511.3
1500        61.265        1515
1500        60.304        1519.4
1500        59.344        1524.5
1500        58.383        1530.2
1500        57.423        1536.5
1500        56.463        1543.3
1500        55.502        1550.7
1500        54.542        1558.6
1500        53.581        1567
1500        52.621        1575.8
1500        51.661        1585.1
1500        50.7        1594.8
1500        49.74        1604.8
1500        48.78        1615.3
1500        47.819        1626
1500        46.859        1637
1500        45.898        1648.3
1500        44.938        1659.9
1500        43.978        1671.7
1500        43.017        1683.6
1500        42.057        1695.7
1500        41.096        1708
1500        40.136        1720.4
1500        39.176        1732.8
1500        38.215        1745.3
1500        37.255        1757.8
1500        36.295        1770.4
1500        35.334        1782.9
1500        34.374        1795.4
1500        33.413        1807.7
1500        32.453        1820
1500        31.493        1832.2
1500        30.532        1844.2
1500        29.572        1856
1500        28.611        1867.6
1500        27.651        1878.9
1500        26.691        1890
1500        25.73        1900.8
1500        24.77        1911.3
1500        23.81        1921.4
1500        22.849        1931.1
1500        21.889        1940.5
1500        20.928        1949.4
1500        19.968        1957.9
1500        19.008        1965.9
1500        18.047        1973.4
1500        17.087        1980.3
1500        16.126        1986.7
1500        15.166        1992.5
1500        14.206        1997.7
1500        13.245        2002.2
1500        12.285        2006.1
1500        11.325        2009.3
1500        10.364        2011.7
1500        9.4038        2013.4
1500        8.4434        2014.3
1500        7.483        2013.4
1500        6.5226        1996.4
1500        5.5622        1951.7
1500        4.6018        1866.9
1500        3.6415        1724
1500        2.6811        1496.5
1500        1.7207        1144.8
1500        0.7603        609.83
1500        -0.20009        -174.78
1500        -1.1605        -839.22
1500        -2.1208        -1280.7
1500        -3.0812        -1568.4
1500        -4.0416        -1750.9
1500        -5.002        -1861.3
1500        -5.9624        -1922.3
1500        -6.9228        -1949.4
1500        -7.8832        -1954
1500        -8.8435        -1953.5
1500        -9.8039        -1952.2
1500        -10.764        -1950.3
1500        -11.725        -1947.8
1500        -12.685        -1944.6
1500        -13.645        -1940.8
1500        -14.606        -1936.5
1500        -15.566        -1931.7
1500        -16.527        -1926.3
1500        -17.487        -1920.4
1500        -18.447        -1914.1
1500        -19.408        -1907.3
1500        -20.368        -1900
1500        -21.329        -1892.4
1500        -22.289        -1884.4
1500        -23.249        -1876
1500        -24.21        -1867.3
1500        -25.17        -1858.3
1500        -26.13        -1849
1500        -27.091        -1839.4
1500        -28.051        -1829.6
1500        -29.012        -1819.5
1500        -29.972        -1809.3
1500        -30.932        -1798.9
1500        -31.893        -1788.3
1500        -32.853        -1777.7
1500        -33.814        -1766.9
1500        -34.774        -1756
1500        -35.734        -1745.1
1500        -36.695        -1734.1
1500        -37.655        -1723.1
1500        -38.615        -1712.2
1500        -39.576        -1701.2
1500        -40.536        -1690.4
1500        -41.497        -1679.6
1500        -42.457        -1668.9
1500        -43.417        -1658.4
1500        -44.378        -1647.9
1500        -45.338        -1637.7
1500        -46.299        -1627.7
1500        -47.259        -1617.9
1500        -48.219        -1608.3
1500        -49.18        -1599
1500        -50.14        -1590
1500        -51.1        -1581.3
1500        -52.061        -1572.9
1500        -53.021        -1564.9
1500        -53.982        -1557.3
1500        -54.942        -1550
1500        -55.902        -1543.2
1500        -56.863        -1536.9
1500        -57.823        -1531
1500        -58.784        -1525.7
1500        -59.744        -1520.8
1500        -60.704        -1516.5
1500        -61.665        -1512.8
1500        -62.625        -1509.6
1500        -63.585        -1507.1
1500        -64.546        -1505.2
1500        -65.506        -1503.8
1500        -66.467        -1502.6
1500        -67.427        -1501.3
1500        -68.387        -1500.1
1500        -69.348        -1498.8
1500        -70.308        -1497.5
1500        -71.269        -1496.3
1500        -72.229        -1495
1500        -73.189        -1493.8
1500        -74.15        -1492.5
1500        -75.11        -1491.2
1500        -76.07        -1490
1500        -77.031        -1488.7
1500        -77.991        -1487.4
1500        -78.952        -1486.2
1500        -79.912        -1484.9
1500        -80.872        -1483.7
1500        -81.833        -1482.4
1500        -82.793        -1481.1
1500        -83.754        -1479.9
1500        -84.714        -1478.6
1500        -85.674        -1477.4
1500        -86.635        -1476.1
1500        -87.595        -1474.8
1500        -88.555        -1473.6
1500        -89.516        -1472.3
1500        -90.476        -1471.1
1500        -91.437        -1469.8
1500        -92.397        -1468.5
1500        -93.357        -1467.3
1500        -94.318        -1466
1500        -95.278        -1464.8
1500        -96.238        -1463.5
1500        -97.199        -1462.2
1500        -98.159        -1461
1500        -99.12        -1459.7
2000        100        1655
2000        99.04        1656.4
2000        98.079        1657.9
2000        97.119        1659.3
2000        96.158        1660.8
2000        95.198        1662.2
2000        94.238        1663.6
2000        93.277        1665.1
2000        92.317        1666.5
2000        91.357        1668
2000        90.396        1669.4
2000        89.436        1670.8
2000        88.475        1672.3
2000        87.515        1673.7
2000        86.555        1675.2
2000        85.594        1676.6
2000        84.634        1678
2000        83.673        1679.5
2000        82.713        1680.9
2000        81.753        1682.4
2000        80.792        1683.8
2000        79.832        1685.3
2000        78.872        1686.7
2000        77.911        1688.1
2000        76.951        1689.6
2000        75.99        1691
2000        75.03        1692.5
2000        74.07        1693.9
2000        73.109        1695.3
2000        72.149        1696.8
2000        71.188        1698.2
2000        70.228        1699.7
2000        69.268        1701.4
2000        68.307        1703.9
2000        67.347        1707.3
2000        66.387        1711.5
2000        65.426        1716.5
2000        64.466        1722.2
2000        63.505        1728.7
2000        62.545        1735.9
2000        61.585        1743.8
2000        60.624        1752.3
2000        59.664        1761.4
2000        58.703        1771.1
2000        57.743        1781.4
2000        56.783        1792.2
2000        55.822        1803.5
2000        54.862        1815.2
2000        53.902        1827.5
2000        52.941        1840.1
2000        51.981        1853.1
2000        51.02        1866.5
2000        50.06        1880.2
2000        49.1        1894.3
2000        48.139        1908.6
2000        47.179        1923.1
2000        46.218        1937.9
2000        45.258        1952.8
2000        44.298        1967.9
2000        43.337        1983.2
2000        42.377        1998.5
2000        41.417        2013.9
2000        40.456        2029.4
2000        39.496        2044.9
2000        38.535        2060.4
2000        37.575        2075.8
2000        36.615        2091.2
2000        35.654        2106.5
2000        34.694        2121.6
2000        33.733        2136.6
2000        32.773        2151.4
2000        31.813        2166
2000        30.852        2180.4
2000        29.892        2194.5
2000        28.932        2208.3
2000        27.971        2221.8
2000        27.011        2235
2000        26.05        2247.7
2000        25.09        2260.1
2000        24.13        2272
2000        23.169        2283.4
2000        22.209        2294.4
2000        21.249        2304.8
2000        20.288        2314.7
2000        19.328        2324
2000        18.367        2332.6
2000        17.407        2340.7
2000        16.447        2348.1
2000        15.486        2354.8
2000        14.526        2360.7
2000        13.565        2366
2000        12.605        2370.4
2000        11.645        2374
2000        10.684        2376.8
2000        9.7239        2378.8
2000        8.7635        2379.8
2000        7.8031        2378.7
2000        6.8427        2360.5
2000        5.8824        2313.7
2000        4.922        2225.9
2000        3.9616        2079.4
2000        3.0012        1847.6
2000        2.0408        1491
2000        1.0804        949.2
2000        0.12005        128.67
2000        -0.84035        -755.17
2000        -1.8007        -1344.5
2000        -2.7611        -1732.8
2000        -3.7215        -1984.7
2000        -4.6819        -2143.3
2000        -5.6423        -2237.8
2000        -6.6026        -2288
2000        -7.563        -2307.3
2000        -8.5234        -2308.4
2000        -9.4838        -2307.5
2000        -10.444        -2305.8
2000        -11.405        -2303.3
2000        -12.365        -2300.1
2000        -13.325        -2296.2
2000        -14.286        -2291.6
2000        -15.246        -2286.3
2000        -16.206        -2280.4
2000        -17.167        -2273.8
2000        -18.127        -2266.7
2000        -19.088        -2259
2000        -20.048        -2250.8
2000        -21.008        -2242.1
2000        -21.969        -2232.9
2000        -22.929        -2223.2
2000        -23.89        -2213
2000        -24.85        -2202.5
2000        -25.81        -2191.6
2000        -26.771        -2180.3
2000        -27.731        -2168.6
2000        -28.691        -2156.7
2000        -29.652        -2144.5
2000        -30.612        -2132
2000        -31.573        -2119.2
2000        -32.533        -2106.3
2000        -33.493        -2093.1
2000        -34.454        -2079.8
2000        -35.414        -2066.4
2000        -36.375        -2052.8
2000        -37.335        -2039.1
2000        -38.295        -2025.4
2000        -39.256        -2011.7
2000        -40.216        -1997.9
2000        -41.176        -1984.1
2000        -42.137        -1970.4
2000        -43.097        -1956.7
2000        -44.058        -1943.2
2000        -45.018        -1929.7
2000        -45.978        -1916.4
2000        -46.939        -1903.2
2000        -47.899        -1890.2
2000        -48.86        -1877.4
2000        -49.82        -1864.9
2000        -50.78        -1852.6
2000        -51.741        -1840.6
2000        -52.701        -1828.9
2000        -53.661        -1817.6
2000        -54.622        -1806.6
2000        -55.582        -1796
2000        -56.543        -1785.8
2000        -57.503        -1776
2000        -58.463        -1766.7
2000        -59.424        -1757.9
2000        -60.384        -1749.6
2000        -61.345        -1741.8
2000        -62.305        -1734.6
2000        -63.265        -1728
2000        -64.226        -1721.9
2000        -65.186        -1716.6
2000        -66.146        -1711.8
2000        -67.107        -1707.8
2000        -68.067        -1704.5
2000        -69.028        -1701.9
2000        -69.988        -1700
2000        -70.948        -1698.6
2000        -71.909        -1697.1
2000        -72.869        -1695.7
2000        -73.83        -1694.3
2000        -74.79        -1692.8
2000        -75.75        -1691.4
2000        -76.711        -1689.9
2000        -77.671        -1688.5
2000        -78.631        -1687.1
2000        -79.592        -1685.6
2000        -80.552        -1684.2
2000        -81.513        -1682.7
2000        -82.473        -1681.3
2000        -83.433        -1679.8
2000        -84.394        -1678.4
2000        -85.354        -1677
2000        -86.315        -1675.5
2000        -87.275        -1674.1
2000        -88.235        -1672.6
2000        -89.196        -1671.2
2000        -90.156        -1669.8
2000        -91.116        -1668.3
2000        -92.077        -1666.9
2000        -93.037        -1665.4
2000        -93.998        -1664
2000        -94.958        -1662.6
2000        -95.918        -1661.1
2000        -96.879        -1659.7
2000        -97.839        -1658.2
2000        -98.8        -1656.8
2000        -99.76        -1655.4
2500        99.36        1704.4
2500        98.399        1705.9
2500        97.439        1707.4
2500        96.479        1708.9
2500        95.518        1710.4
2500        94.558        1711.9
2500        93.597        1713.4
2500        92.637        1714.9
2500        91.677        1716.4
2500        90.716        1717.9
2500        89.756        1719.4
2500        88.796        1720.9
2500        87.835        1722.4
2500        86.875        1723.9
2500        85.914        1725.4
2500        84.954        1726.9
2500        83.994        1728.4
2500        83.033        1729.9
2500        82.073        1731.4
2500        81.112        1732.9
2500        80.152        1734.4
2500        79.192        1736
2500        78.231        1737.5
2500        77.271        1739
2500        76.311        1740.5
2500        75.35        1742
2500        74.39        1743.6
2500        73.429        1746.2
2500        72.469        1749.8
2500        71.509        1754.2
2500        70.548        1759.5
2500        69.588        1765.6
2500        68.627        1772.6
2500        67.667        1780.3
2500        66.707        1788.8
2500        65.746        1798
2500        64.786        1807.9
2500        63.826        1818.5
2500        62.865        1829.8
2500        61.905        1841.6
2500        60.944        1854
2500        59.984        1867
2500        59.024        1880.5
2500        58.063        1894.5
2500        57.103        1909
2500        56.142        1923.9
2500        55.182        1939.2
2500        54.222        1954.9
2500        53.261        1971
2500        52.301        1987.4
2500        51.341        2004.1
2500        50.38        2021
2500        49.42        2038.2
2500        48.459        2055.6
2500        47.499        2073.2
2500        46.539        2090.9
2500        45.578        2108.7
2500        44.618        2126.7
2500        43.657        2144.7
2500        42.697        2162.7
2500        41.737        2180.7
2500        40.776        2198.8
2500        39.816        2216.7
2500        38.856        2234.6
2500        37.895        2252.4
2500        36.935        2270.1
2500        35.974        2287.5
2500        35.014        2304.8
2500        34.054        2321.9
2500        33.093        2338.7
2500        32.133        2355.2
2500        31.172        2371.4
2500        30.212        2387.3
2500        29.252        2402.8
2500        28.291        2417.9
2500        27.331        2432.6
2500        26.371        2446.8
2500        25.41        2460.6
2500        24.45        2473.8
2500        23.489        2486.5
2500        22.529        2498.6
2500        21.569        2510.1
2500        20.608        2521
2500        19.648        2531.3
2500        18.687        2540.8
2500        17.727        2549.7
2500        16.767        2557.8
2500        15.806        2565.1
2500        14.846        2571.6
2500        13.886        2577.3
2500        12.925        2582.1
2500        11.965        2586.1
2500        11.004        2589.1
2500        10.044        2591.2
2500        9.0836        2592.3
2500        8.1232        2591.1
2500        7.1629        2573.1
2500        6.2025        2527.5
2500        5.2421        2443
2500        4.2817        2303.3
2500        3.3213        2084
2500        2.3609        1748.9
2500        1.4006        1242
2500        0.44018        474.87
2500        -0.52021        -536.89
2500        -1.4806        -1262.1
2500        -2.441        -1742.5
2500        -3.4014        -2058.7
2500        -4.3618        -2263.4
2500        -5.3221        -2391.4
2500        -6.2825        -2466.2
2500        -7.2429        -2503.6
2500        -8.2033        -2514.7
2500        -9.1637        -2514.3
2500        -10.124        -2513
2500        -11.084        -2510.8
2500        -12.045        -2507.8
2500        -13.005        -2504
2500        -13.966        -2499.4
2500        -14.926        -2494
2500        -15.886        -2487.9
2500        -16.847        -2481.1
2500        -17.807        -2473.6
2500        -18.768        -2465.4
2500        -19.728        -2456.6
2500        -20.688        -2447.2
2500        -21.649        -2437.2
2500        -22.609        -2426.6
2500        -23.569        -2415.6
2500        -24.53        -2404
2500        -25.49        -2391.9
2500        -26.451        -2379.4
2500        -27.411        -2366.4
2500        -28.371        -2353.1
2500        -29.332        -2339.4
2500        -30.292        -2325.3
2500        -31.252        -2310.9
2500        -32.213        -2296.2
2500        -33.173        -2281.2
2500        -34.134        -2266
2500        -35.094        -2250.5
2500        -36.054        -2234.9
2500        -37.015        -2219.1
2500        -37.975        -2203.1
2500        -38.936        -2187
2500        -39.896        -2170.9
2500        -40.856        -2154.6
2500        -41.817        -2138.4
2500        -42.777        -2122.1
2500        -43.737        -2105.8
2500        -44.698        -2089.5
2500        -45.658        -2073.3
2500        -46.619        -2057.2
2500        -47.579        -2041.2
2500        -48.539        -2025.4
2500        -49.5        -2009.7
2500        -50.46        -1994.2
2500        -51.421        -1978.9
2500        -52.381        -1963.8
2500        -53.341        -1949.1
2500        -54.302        -1934.6
2500        -55.262        -1920.4
2500        -56.222        -1906.6
2500        -57.183        -1893.1
2500        -58.143        -1880.1
2500        -59.104        -1867.4
2500        -60.064        -1855.2
2500        -61.024        -1843.5
2500        -61.985        -1832.3
2500        -62.945        -1821.6
2500        -63.906        -1811.5
2500        -64.866        -1801.9
2500        -65.826        -1792.9
2500        -66.787        -1784.6
2500        -67.747        -1776.9
2500        -68.707        -1769.9
2500        -69.668        -1763.5
2500        -70.628        -1758
2500        -71.589        -1753.1
2500        -72.549        -1749.1
2500        -73.509        -1745.9
2500        -74.47        -1743.5
2500        -75.43        -1741.8
2500        -76.391        -1740.3
2500        -77.351        -1738.8
2500        -78.311        -1737.3
2500        -79.272        -1735.8
2500        -80.232        -1734.3
2500        -81.192        -1732.8
2500        -82.153        -1731.3
2500        -83.113        -1729.8
2500        -84.074        -1728.3
2500        -85.034        -1726.8
2500        -85.994        -1725.3
2500        -86.955        -1723.8
2500        -87.915        -1722.3
2500        -88.876        -1720.8
2500        -89.836        -1719.3
2500        -90.796        -1717.8
2500        -91.757        -1716.3
2500        -92.717        -1714.8
2500        -93.677        -1713.3
2500        -94.638        -1711.8
2500        -95.598        -1710.3
2500        -96.559        -1708.8
2500        -97.519        -1707.3
2500        -98.479        -1705.8
2500        -99.44        -1704.3
3000        99.68        1602.5
3000        98.719        1603.9
3000        97.759        1605.4
3000        96.799        1606.8
3000        95.838        1608.2
3000        94.878        1609.7
3000        93.918        1611.1
3000        92.957        1612.6
3000        91.997        1614
3000        91.036        1615.4
3000        90.076        1616.9
3000        89.116        1618.3
3000        88.155        1619.8
3000        87.195        1621.2
3000        86.234        1622.6
3000        85.274        1624.1
3000        84.314        1625.5
3000        83.353        1627
3000        82.393        1628.4
3000        81.433        1629.9
3000        80.472        1631.3
3000        79.512        1632.9
3000        78.551        1635.3
3000        77.591        1638.8
3000        76.631        1643.2
3000        75.67        1648.6
3000        74.71        1654.9
3000        73.75        1662
3000        72.789        1670
3000        71.829        1678.9
3000        70.868        1688.5
3000        69.908        1698.9
3000        68.948        1710
3000        67.987        1721.8
3000        67.027        1734.4
3000        66.066        1747.5
3000        65.106        1761.3
3000        64.146        1775.7
3000        63.185        1790.7
3000        62.225        1806.1
3000        61.265        1822.1
3000        60.304        1838.6
3000        59.344        1855.6
3000        58.383        1872.9
3000        57.423        1890.7
3000        56.463        1908.8
3000        55.502        1927.2
3000        54.542        1946
3000        53.581        1965
3000        52.621        1984.3
3000        51.661        2003.9
3000        50.7        2023.6
3000        49.74        2043.5
3000        48.78        2063.5
3000        47.819        2083.6
3000        46.859        2103.8
3000        45.898        2124.1
3000        44.938        2144.4
3000        43.978        2164.7
3000        43.017        2184.9
3000        42.057        2205.1
3000        41.096        2225.2
3000        40.136        2245.2
3000        39.176        2265.1
3000        38.215        2284.7
3000        37.255        2304.2
3000        36.295        2323.4
3000        35.334        2342.4
3000        34.374        2361.1
3000        33.413        2379.4
3000        32.453        2397.5
3000        31.493        2415.1
3000        30.532        2432.3
3000        29.572        2449.1
3000        28.611        2465.5
3000        27.651        2481.3
3000        26.691        2496.7
3000        25.73        2511.5
3000        24.77        2525.7
3000        23.81        2539.3
3000        22.849        2552.3
3000        21.889        2564.6
3000        20.928        2576.3
3000        19.968        2587.2
3000        19.008        2597.3
3000        18.047        2606.7
3000        17.087        2615.3
3000        16.126        2623.1
3000        15.166        2630
3000        14.206        2636
3000        13.245        2641.1
3000        12.285        2645.3
3000        11.325        2648.5
3000        10.364        2650.7
3000        9.4038        2651.8
3000        8.4434        2650.6
3000        7.483        2633.7
3000        6.5226        2591.7
3000        5.5622        2514.6
3000        4.6018        2388.4
3000        3.6415        2191.9
3000        2.6811        1894.1
3000        1.7207        1446.8
3000        0.7603        773.58
3000        -0.20009        -223
3000        -1.1605        -1061.3
3000        -2.1208        -1617.6
3000        -3.0812        -1987.4
3000        -4.0416        -2231.4
3000        -5.002        -2389.2
3000        -5.9624        -2486.9
3000        -6.9228        -2542.3
3000        -7.8832        -2567.8
3000        -8.8435        -2572.4
3000        -9.8039        -2571.6
3000        -10.764        -2569.9
3000        -11.725        -2567.3
3000        -12.685        -2563.8
3000        -13.645        -2559.4
3000        -14.606        -2554.2
3000        -15.566        -2548.1
3000        -16.527        -2541.2
3000        -17.487        -2533.6
3000        -18.447        -2525.3
3000        -19.408        -2516.2
3000        -20.368        -2506.4
3000        -21.329        -2496
3000        -22.289        -2484.9
3000        -23.249        -2473.3
3000        -24.21        -2461
3000        -25.17        -2448.2
3000        -26.13        -2434.8
3000        -27.091        -2420.9
3000        -28.051        -2406.6
3000        -29.012        -2391.8
3000        -29.972        -2376.5
3000        -30.932        -2360.9
3000        -31.893        -2344.9
3000        -32.853        -2328.5
3000        -33.814        -2311.8
3000        -34.774        -2294.8
3000        -35.734        -2277.5
3000        -36.695        -2260
3000        -37.655        -2242.2
3000        -38.615        -2224.3
3000        -39.576        -2206.2
3000        -40.536        -2187.9
3000        -41.497        -2169.5
3000        -42.457        -2151
3000        -43.417        -2132.5
3000        -44.378        -2113.9
3000        -45.338        -2095.2
3000        -46.299        -2076.6
3000        -47.259        -2058.1
3000        -48.219        -2039.6
3000        -49.18        -2021.1
3000        -50.14        -2002.8
3000        -51.1        -1984.7
3000        -52.061        -1966.7
3000        -53.021        -1948.8
3000        -53.982        -1931.2
3000        -54.942        -1913.9
3000        -55.902        -1896.8
3000        -56.863        -1880
3000        -57.823        -1863.5
3000        -58.784        -1847.4
3000        -59.744        -1831.6
3000        -60.704        -1816.2
3000        -61.665        -1801.3
3000        -62.625        -1786.8
3000        -63.585        -1772.8
3000        -64.546        -1759.3
3000        -65.506        -1746.3
3000        -66.467        -1733.8
3000        -67.427        -1722
3000        -68.387        -1710.7
3000        -69.348        -1700.1
3000        -70.308        -1690.1
3000        -71.269        -1680.8
3000        -72.229        -1672.2
3000        -73.189        -1664.4
3000        -74.15        -1657.3
3000        -75.11        -1651
3000        -76.07        -1645.5
3000        -77.031        -1640.8
3000        -77.991        -1637
3000        -78.952        -1634.1
3000        -79.912        -1632.1
3000        -80.872        -1630.7
3000        -81.833        -1629.3
3000        -82.793        -1627.8
3000        -83.754        -1626.4
3000        -84.714        -1624.9
3000        -85.674        -1623.5
3000        -86.635        -1622
3000        -87.595        -1620.6
3000        -88.555        -1619.2
3000        -89.516        -1617.7
3000        -90.476        -1616.3
3000        -91.437        -1614.8
3000        -92.397        -1613.4
3000        -93.357        -1612
3000        -94.318        -1610.5
3000        -95.278        -1609.1
3000        -96.238        -1607.6
3000        -97.199        -1606.2
3000        -98.159        -1604.8
3000        -99.12        -1603.3
**END                
